{
  "entry": [
    {
      "fullUrl": "urn:uuid:b2e0f7b4-a5ff-4116-a33b-cf5c70246c26",
      "resource": {
        "resourceType": "Composition",
        "status": "final",
        "language": "en",
        "title": "Continuity of Care Document",
        "date": "2016-10-03T18:27:10.000Z",
        "identifier": {
          "value": "urn:uuid:973c7e16-05dd-484f-a780-e80904fd8ff0",
          "system": "urn:ietf:rfc:3986"
        },
        "type": {
          "coding": [
            {
              "code": "34133-9",
              "system": "http://loinc.org"
            }
          ]
        },
        "subject": {
          "reference": "urn:uuid:f0cac5f6-4517-46c0-a4d6-3ff8648cb59f"
        },
        "encounter": {
          "reference": "urn:uuid:154096a5-fb4e-43d3-8f98-d0610b6bf2e8"
        },
        "custodian": {
          "reference": "urn:uuid:7aa640d0-9c5c-4216-8b3b-b0110b3a69dc"
        },
        "author": [
          {
            "reference": "urn:uuid:e0cf1ab2-7cd1-4c06-b440-4eeb246e2cde"
          }
        ],
        "event": [
          {
            "extension": [
              {
                "url": "http://hl7.org/fhir/StructureDefinition/data-absent-reason",
                "valueCode": "unsupported"
              }
            ]
          }
        ],
        "section": [
          {
            "title": "Allergies",
            "code": {
              "coding": [
                {
                  "code": "48765-2",
                  "system": "http://loinc.org"
                }
              ]
            },
            "entry": [
              {
                "reference": "urn:uuid:3aab24d8-9ccb-4972-83ff-88ee8a04fda0"
              }
            ],
            "text": {
              "div": "<div xmlns=\"http://www.w3.org/1999/xhtml\"><table> <colgroup> <col width=\"40%\"></col> <col width=\"20%\"></col> <col width=\"40%\"></col> </colgroup> <tbody> <tr> <td> <span id=\"_6db75b62-deb2-4bab-b597-00c8ae86f6b4\">Aspirin TABS</span> <span class=\"xSecondary\"> (propensity to adverse reactions to drug)</span> </td> <td> <span class=\"xSecondary\">Onset: 1-May-2008</span> </td> <td> <span> <span class=\"xSecondary\" style=\"font-weight:bold;text-align:center;\">Reaction</span>: <span id=\"_8a7ed342-967a-400e-88d5-2f8c2b7cdda0\" style=\"font-weight:bold;font-color:red;\">Hives</span> <span style=\"font-weight:bold;font-color:red;\"> (Severe)</span> </span> </td> </tr> </tbody> </table></div>",
              "_status": {
                "extension": [
                  {
                    "url": "http://hl7.org/fhir/StructureDefinition/data-absent-reason",
                    "valueCode": "unknown"
                  }
                ]
              }
            }
          },
          {
            "title": "Encounters",
            "code": {
              "coding": [
                {
                  "code": "46240-8",
                  "system": "http://loinc.org"
                }
              ]
            },
            "entry": [
              {
                "reference": "urn:uuid:e3a59b3a-f566-4e67-ac67-005acec86cbc"
              }
            ],
            "text": {
              "div": "<div xmlns=\"http://www.w3.org/1999/xhtml\"><table border=\"1\" width=\"100%\"> <thead> <tr> <th>Encounter</th> <th>Performer</th> <th>Location</th> <th>Encounter date</th> <th>Diagnosis</th> <th>Diagnosis Status</th> </tr> </thead> <tbody> <tr id=\"Encounter1\"> <td id=\"Encounter1_type\">Office outpatient visit</td> <td>Dr. Samir Kahn <span id=\"Encounter1_performer_type\">Internal Medicine</span> </td> <td>Community Urgent Care (Urgent Care Center) <div>1004 Healthcare Dr.</div> <div>Portland, OR 97005</div> </td> <td>August 15, 2012</td> <td id=\"Encounter1_diagnosis\">Costal Chondritis</td> <td id=\"Encounter1_diagnosis_status\">Active</td> </tr> </tbody> </table></div>",
              "_status": {
                "extension": [
                  {
                    "url": "http://hl7.org/fhir/StructureDefinition/data-absent-reason",
                    "valueCode": "unknown"
                  }
                ]
              }
            }
          },
          {
            "title": "Immunizations",
            "code": {
              "coding": [
                {
                  "code": "11369-6",
                  "system": "http://loinc.org"
                }
              ]
            },
            "entry": [
              {
                "reference": "urn:uuid:c6cf1d0a-e6b3-4f1e-9723-c205adf9ce1c"
              }
            ],
            "text": {
              "div": "<div xmlns=\"http://www.w3.org/1999/xhtml\"><span id=\"immunSect\"></span> <table border=\"1\" width=\"100%\"> <thead> <tr> <th>Vaccine</th> <th>Lot Number</th> <th>Date</th> <th>Status</th> </tr> </thead> <tbody> <tr id=\"immun1\"> <td id=\"ImmunizationProduct_100\">Influenza Virus Vaccine</td> <td>1</td> <td>8/15/2010</td> <td>Completed</td> </tr> </tbody> </table></div>",
              "_status": {
                "extension": [
                  {
                    "url": "http://hl7.org/fhir/StructureDefinition/data-absent-reason",
                    "valueCode": "unknown"
                  }
                ]
              }
            }
          },
          {
            "title": "Medications",
            "code": {
              "coding": [
                {
                  "code": "10160-0",
                  "system": "http://loinc.org"
                }
              ]
            },
            "entry": [
              {
                "reference": "urn:uuid:cfaada23-7529-4392-af5c-de2589b64a8b"
              }
            ],
            "text": {
              "div": "<div xmlns=\"http://www.w3.org/1999/xhtml\"><table width=\"100\" border=\"1\"> <thead> <tr> <th>Medication</th> <th>Directions</th> <th>Start Date</th> <th>Status</th> </tr> </thead> <tbody> <tr> <td>Albuterol 0.09 MG/ACTUAT inhalant powder</td> <td>0.09 MG/ACTUAT inhalant powder, 2 puffs once</td> <td>20120806</td> <td>Posted</td> </tr> </tbody> </table></div>",
              "_status": {
                "extension": [
                  {
                    "url": "http://hl7.org/fhir/StructureDefinition/data-absent-reason",
                    "valueCode": "unknown"
                  }
                ]
              }
            }
          },
          {
            "title": "Plan Of Treatment",
            "code": {
              "coding": [
                {
                  "code": "18776-5",
                  "system": "http://loinc.org"
                }
              ]
            },
            "entry": [
              {
                "reference": "urn:uuid:11ca0920-99bd-4775-b184-7205df20aa4a"
              }
            ],
            "text": {
              "div": "<div xmlns=\"http://www.w3.org/1999/xhtml\"><table border=\"1\" width=\"100%\"> <thead> <tr> <th>Date/time</th> <th>Goal</th> <th>Instructions</th> </tr> </thead> <tbody> <tr id=\"Goal1\"> <td>August 15, 2012 10:00am</td> <td id=\"Goal1_desc\">Weight Loss</td> <td id=\"Action1\"> <span id=\"Action1_Type\">Patient Education:</span> <span id=\"Action1_desc\">Diet and exercise counseling provided during visit.</span> </td> </tr> <tr id=\"Goal2\"> <td>August 15, 2012 10:00am</td> <td id=\"Goal2_desc\">Asthma management</td> <td id=\"Action2\"> <span id=\"Action2_Type\">Patient Education:</span> <span id=\"Action2_desc\">Resources and instructions provided during visit.</span> </td> </tr> </tbody> </table></div>",
              "_status": {
                "extension": [
                  {
                    "url": "http://hl7.org/fhir/StructureDefinition/data-absent-reason",
                    "valueCode": "unknown"
                  }
                ]
              }
            }
          },
          {
            "title": "Problems",
            "code": {
              "coding": [
                {
                  "code": "11450-4",
                  "system": "http://loinc.org"
                }
              ]
            },
            "entry": [
              {
                "reference": "urn:uuid:2d11e51c-2bc5-48c8-b0b8-0e4f4f20d988"
              },
              {
                "reference": "urn:uuid:9f4a6111-a86a-467a-a2a8-8397c3ca7152"
              }
            ],
            "text": {
              "div": "<div xmlns=\"http://www.w3.org/1999/xhtml\"><table> <colgroup> <col width=\"40%\"></col> <col width=\"20%\"></col> <col width=\"40%\"></col> </colgroup> <tbody class=\"xRowGroup\"> <tr> <td> <span id=\"_5011447a-e27f-471d-9e1f-541148c5282f\">Pneumonia</span> <span class=\"xSecondary\">(486) (J18.9)</span> <br></br> </td> <td> <span class=\"xSecondary\" style=\"font-weight:bold;text-align:center;\">Onset: </span> <span>6-Aug-2012</span> <br></br> </td> <td></td> </tr> </tbody> <tbody class=\"xRowGroup\"> <tr> <td> <span id=\"_4f1a62c2-9353-455a-bf3a-40f46a6115f4\">Asthma</span> <span class=\"xSecondary\">(493.90) (J45.909)</span> <br></br> </td> <td></td> <td></td> </tr> </tbody> </table></div>",
              "_status": {
                "extension": [
                  {
                    "url": "http://hl7.org/fhir/StructureDefinition/data-absent-reason",
                    "valueCode": "unknown"
                  }
                ]
              }
            }
          },
          {
            "title": "Procedures",
            "code": {
              "coding": [
                {
                  "code": "47519-4",
                  "system": "http://loinc.org"
                }
              ]
            },
            "entry": [
              {
                "reference": "urn:uuid:912c7a57-db8f-44c4-99a5-49350648270e"
              }
            ],
            "text": {
              "div": "<div xmlns=\"http://www.w3.org/1999/xhtml\"><table> <colgroup> <col width=\"40%\"></col> <col width=\"20%\"></col> <col width=\"40%\"></col> </colgroup> <tbody class=\"xRowGroup\"> <tr> <td> <span id=\"_dfcf353c-538f-498a-9a53-80dda209e456\">H/O chest x-ray</span> </td> <td></td> <td></td> </tr> </tbody> </table></div>",
              "_status": {
                "extension": [
                  {
                    "url": "http://hl7.org/fhir/StructureDefinition/data-absent-reason",
                    "valueCode": "unknown"
                  }
                ]
              }
            }
          },
          {
            "title": "Results",
            "code": {
              "coding": [
                {
                  "code": "30954-2",
                  "system": "http://loinc.org"
                }
              ]
            },
            "entry": [
              {
                "reference": "urn:uuid:5829123c-fa86-4c61-b318-e89d28c0547b"
              }
            ],
            "text": {
              "div": "<div xmlns=\"http://www.w3.org/1999/xhtml\"><table>  <colgroup> <col width=\"20%\"></col> <col width=\"40%\"></col> <col width=\"40%\"></col> </colgroup> <tbody class=\"xRowGroup\"> <tr> <td> <span id=\"_3ffb46b1-9fe4-45f3-9a0f-e0e492563e7b\" class=\"xContentWrapping\" style=\"font-weight:bold;text-align:center;\">Urinanalysis macro (dipstick) panel</span> <br></br> <span class=\"xSecondary xContentWrapping\">22-Jun-2015</span> </td>  <td> <span style=\"font-weight:bold;text-align:center;\">Laboratory: </span> <span> Value Labs</span> <span> 2474, Rocky place Beaverton OR 97006</span> <span> tel:+1-(555)666-1002</span> </td> <td> </td> </tr>  <tr id=\"_13a52df8-79ed-4689-a9da-14c5905de830\"> <td> </td> <td> <span id=\"_ea838e08-d5eb-4ed4-a176-e5f9a831a780\" class=\"xSecondary\">Specific gravity of Urine by Test strip</span> <span class=\"xSecondary\"> 1.015</span> </td> <td> <span class=\"xSecondary\" style=\"font-weight:bold;text-align:center;\">Range: </span>  <span id=\"_08b7d0ee-aff1-4144-a3a5-c89d56d855ad\"> <span class=\"xSecondary\">1.005</span> <span class=\"xSecondary\"> - </span> <span class=\"xSecondary\">1.030</span> </span> <br></br> </td> </tr>  </tbody> </table></div>",
              "_status": {
                "extension": [
                  {
                    "url": "http://hl7.org/fhir/StructureDefinition/data-absent-reason",
                    "valueCode": "unknown"
                  }
                ]
              }
            }
          },
          {
            "title": "Social History",
            "code": {
              "coding": [
                {
                  "code": "29762-2",
                  "system": "http://loinc.org"
                }
              ]
            },
            "entry": [
              {
                "reference": "urn:uuid:168aa9e7-f3ec-45fd-afc8-5184ced06270"
              }
            ],
            "text": {
              "div": "<div xmlns=\"http://www.w3.org/1999/xhtml\"><ul> <caption>Smoking Status</caption> <li id=\"SmokingStatus\"> <span>Status: Current every day smoker</span> <span id=\"SmokingDetail1\">Detail: Moderate smoker (10-19 cigs/day)</span> <span>Started: 1992</span> <span>Stopped:</span> <span>Recorded June 6, 2014 10:32am</span> </li> </ul></div>",
              "_status": {
                "extension": [
                  {
                    "url": "http://hl7.org/fhir/StructureDefinition/data-absent-reason",
                    "valueCode": "unknown"
                  }
                ]
              }
            }
          },
          {
            "title": "Vital Signs",
            "code": {
              "coding": [
                {
                  "code": "8716-3",
                  "system": "http://loinc.org"
                }
              ]
            },
            "entry": [
              {
                "reference": "urn:uuid:c2c98e8f-2e30-4df8-9a93-16d1ecc28e87"
              }
            ],
            "text": {
              "div": "<div xmlns=\"http://www.w3.org/1999/xhtml\"><table> <thead> <tr> <th>Date</th> <th>Pulse</th>  </tr> </thead> <tbody> <tr> <td>05/20/2014 7:36pm</td> <td id=\"Pulse_1\">80 /min</td>  </tr> </tbody> </table></div>",
              "_status": {
                "extension": [
                  {
                    "url": "http://hl7.org/fhir/StructureDefinition/data-absent-reason",
                    "valueCode": "unknown"
                  }
                ]
              }
            }
          },
          {
            "title": "Consultation Notes",
            "code": {
              "text": "Consultation note",
              "coding": [
                {
                  "code": "11488-4",
                  "system": "http://loinc.org"
                }
              ]
            },
            "entry": [
              {
                "reference": "urn:uuid:8a0f37e3-9c41-4e41-9dfa-c326704239ad"
              }
            ],
            "text": {
              "div": "<div xmlns=\"http://www.w3.org/1999/xhtml\">\n\t\t\t\t\t\t<ul>\n\t\t\t\t\t\t\t<li id=\"ConsultNote1\">\n\t\t\t\t\t\t\t\t<div>Dr. Specialist - September 8, 2016</div>\n\t\t\t\t\t\t\t\t<div> Dear Dr. Henry Leven: Thank you for referring Ms. Jones for evaluation. Approximately 18 years ago, she was hospitalized with a bleeding\n                    ulcer. She had a CT scan of the abdomen, which revealed findings consistent with\n                    focal nodular hyperplasia (FNH). She has had epigastric abdominal pain as well\n                    as a significant change in her bowel movements from baseline constipation to\n                    frequent diarrhea. The past medical history is otherwise negative. She takes no\n                    prescription medications. The remainder of the history is not contributory. </div>\n\t\t\t\t\t\t\t\t<div>Physical examination revealed a well-appearing woman. The vital signs\n                    were normal. The head and neck were unremarkable. The lung fields were clear.\n                    The heart exam was normal. The abdomen was obese with normal bowel sounds. There\n                    was no tenderness, mass, or hepatosplenomegaly. </div>\n\t\t\t\t\t\t\t\t<div>Endoscopic evaluation revealed a normal colonoscopy. Biopsies taken\n                    throughout the colon were essentially unremarkable. Stool tests for pathogenic\n                    organisms were negative. Of note, on the upper endoscopy examination, no\n                    significant abnormalities were seen; however, upon biopsy, features of celiac\n                    disease were noted.</div>\n\t\t\t\t\t\t\t\t<div> In summary, this patient has evidence of celiac disease. We\n                    discussed the diagnosis in detail in the office. She was advised to undertake a\n                    lifelong gluten-free diet. Followup laboratories in my office were notable for a\n                    low serum iron with a low-normal ferritin. The bone density was normal. Repeat\n                    triple-phase CT scan of the liver revealed no change in the right hepatic lobe\n                    lesion, which is consistent with FNH. I advised periodic reevaluation of the\n                    liver with imaging, as well as followup for any potential development of\n                    nutritional deficiencies. She should take an iron supplement and continue on a\n                    lifelong gluten-free diet. </div>\n\t\t\t\t\t\t\t\t<div>Thank you for the courtesy of this referral. I would be pleased to see\n                    Ms. Jones in followup.</div>\n\t\t\t\t\t\t\t</li>\n\t\t\t\t\t\t</ul>\n\t\t\t\t\t</div>",
              "_status": {
                "extension": [
                  {
                    "url": "http://hl7.org/fhir/StructureDefinition/data-absent-reason",
                    "valueCode": "unknown"
                  }
                ]
              }
            }
          }
        ]
      }
    },
    {
      "fullUrl": "urn:uuid:f0cac5f6-4517-46c0-a4d6-3ff8648cb59f",
      "resource": {
        "resourceType": "Patient",
        "identifier": [
          {
            "value": "160920144139807",
            "system": "urn:oid:1.3.6.1.4.1.22812.3.2009316.3"
          }
        ],
        "birthDate": "1947-05-01",
        "address": [
          {
            "line": [
              "1357 Amber Drive"
            ],
            "city": "Beaverton",
            "state": "OR",
            "postalCode": "97006",
            "use": "home"
          }
        ],
        "name": [
          {
            "use": "official",
            "family": "Jones",
            "given": [
              "Myra"
            ]
          }
        ],
        "gender": "female",
        "managingOrganization": {
          "reference": "urn:uuid:c53701ab-d28c-4fa0-80fd-b479d7f90992"
        },
        "extension": [
          {
            "url": "http://hl7.org/fhir/us/core/StructureDefinition/us-core-race",
            "extension": [
              {
                "url": "text",
                "valueString": "White"
              },
              {
                "url": "ombCategory",
                "valueCoding": {
                  "code": "2106-3",
                  "system": "urn:oid:2.16.840.1.113883.6.238",
                  "display": "White"
                }
              }
            ]
          },
          {
            "url": "http://hl7.org/fhir/us/core/StructureDefinition/us-core-ethnicity",
            "extension": [
              {
                "url": "ombCategory",
                "valueCoding": {
                  "code": "2135-2",
                  "system": "urn:oid:2.16.840.1.113883.6.238",
                  "display": "Hispanic or Latino"
                }
              },
              {
                "url": "text",
                "valueString": "Hispanic or Latino"
              }
            ]
          }
        ]
      }
    },
    {
      "fullUrl": "urn:uuid:c53701ab-d28c-4fa0-80fd-b479d7f90992",
      "resource": {
        "resourceType": "Organization",
        "identifier": [
          {
            "value": "3",
            "system": "urn:oid:1.3.6.1.4.1.22812.3.2009316.3"
          }
        ],
        "name": "Primary Care's Partners Test",
        "address": [
          {
            "line": [
              "123 main street"
            ],
            "city": "Chicago",
            "state": "IL",
            "postalCode": "60629"
          }
        ],
        "telecom": [
          {
            "value": "+16768576769",
            "use": "work",
            "system": "phone"
          }
        ],
        "active": true
      }
    },
    {
      "fullUrl": "urn:uuid:7aa640d0-9c5c-4216-8b3b-b0110b3a69dc",
      "resource": {
        "resourceType": "Organization",
        "identifier": [
          {
            "value": "3",
            "system": "urn:oid:1.3.6.1.4.1.22812.3.2009316.3"
          }
        ],
        "name": "Primary Care's Partners Test",
        "address": [
          {
            "line": [
              "123 main street"
            ],
            "city": "Chicago",
            "state": "IL",
            "postalCode": "60629"
          }
        ],
        "telecom": [
          {
            "value": "+16768576769",
            "use": "work",
            "system": "phone"
          }
        ],
        "active": true
      }
    },
    {
      "fullUrl": "urn:uuid:e0cf1ab2-7cd1-4c06-b440-4eeb246e2cde",
      "resource": {
        "resourceType": "PractitionerRole",
        "practitioner": {
          "reference": "urn:uuid:65244176-815a-4b5c-a31a-7cba9451f7e3"
        },
        "location": [
          {
            "reference": "urn:uuid:bccc609e-b369-4acc-8d4a-1bed3e8d83b3"
          }
        ]
      }
    },
    {
      "fullUrl": "urn:uuid:65244176-815a-4b5c-a31a-7cba9451f7e3",
      "resource": {
        "resourceType": "Practitioner",
        "active": true,
        "name": [
          {
            "_family": {
              "extension": [
                {
                  "url": "http://hl7.org/fhir/StructureDefinition/data-absent-reason",
                  "valueCode": "unknown"
                }
              ]
            }
          }
        ],
        "identifier": [
          {
            "_value": {
              "extension": [
                {
                  "url": "http://hl7.org/fhir/StructureDefinition/data-absent-reason",
                  "valueCode": "unknown"
                }
              ]
            },
            "_system": {
              "extension": [
                {
                  "url": "http://hl7.org/fhir/StructureDefinition/data-absent-reason",
                  "valueCode": "unknown"
                }
              ]
            }
          }
        ]
      }
    },
    {
      "fullUrl": "urn:uuid:bccc609e-b369-4acc-8d4a-1bed3e8d83b3",
      "resource": {
        "resourceType": "Location",
        "name": "Primary Care's Partners Test",
        "physicalType": {
          "text": "Facility",
          "coding": [
            {
              "code": "si",
              "system": "http://terminology.hl7.org/CodeSystem/location-physical-type",
              "display": "Site"
            }
          ]
        }
      }
    },
    {
      "fullUrl": "urn:uuid:154096a5-fb4e-43d3-8f98-d0610b6bf2e8",
      "resource": {
        "resourceType": "Encounter",
        "status": "finished",
        "class": {
          "code": "unknown",
          "system": "http://terminology.hl7.org/CodeSystem/data-absent-reason",
          "display": "unknown"
        },
        "type": [
          {
            "coding": [
              {
                "code": "unknown",
                "system": "http://terminology.hl7.org/CodeSystem/data-absent-reason",
                "display": "unknown"
              }
            ]
          }
        ],
        "period": {
          "start": "2016-10-03T14:30:00.000Z",
          "end": "2016-10-03T18:27:10.000Z"
        },
        "subject": {
          "reference": "urn:uuid:f0cac5f6-4517-46c0-a4d6-3ff8648cb59f"
        },
        "identifier": [
          {
            "value": "1149324",
            "system": "urn:redox:39fdca11-cf15-4175-8f91-4eab4dc78671:VIS"
          }
        ]
      }
    },
    {
      "fullUrl": "urn:uuid:3aab24d8-9ccb-4972-83ff-88ee8a04fda0",
      "resource": {
        "resourceType": "AllergyIntolerance",
        "identifier": [
          {
            "value": "545077400001",
            "system": "urn:oid:1.3.6.1.4.1.22812.3.2009316.3.4.10.2"
          }
        ],
        "clinicalStatus": {
          "text": "Active",
          "coding": [
            {
              "code": "active",
              "system": "http://terminology.hl7.org/CodeSystem/allergyintolerance-clinical",
              "display": "Active"
            }
          ]
        },
        "type": "allergy",
        "_type": {
          "extension": [
            {
              "url": "http://hl7.org/fhir/StructureDefinition/originalText",
              "valueString": "Aspirin TABS"
            }
          ]
        },
        "category": [
          "medication"
        ],
        "code": {
          "coding": [
            {
              "code": "1191",
              "system": "http://www.nlm.nih.gov/research/umls/rxnorm"
            },
            {
              "code": "293586001",
              "system": "http://snomed.info/sct"
            }
          ]
        },
        "patient": {
          "reference": "urn:uuid:f0cac5f6-4517-46c0-a4d6-3ff8648cb59f"
        },
        "encounter": {
          "reference": "urn:uuid:154096a5-fb4e-43d3-8f98-d0610b6bf2e8"
        },
        "onsetDateTime": "2008-05-01",
        "reaction": [
          {
            "manifestation": [
              {
                "text": "Hives",
                "coding": [
                  {
                    "code": "247472004",
                    "system": "http://snomed.info/sct"
                  }
                ]
              }
            ],
            "description": "Hives",
            "severity": "severe"
          }
        ]
      }
    },
    {
      "fullUrl": "urn:uuid:e3a59b3a-f566-4e67-ac67-005acec86cbc",
      "resource": {
        "resourceType": "Encounter",
        "identifier": [
          {
            "value": "urn:uuid:2a620155-9d11-439e-92b3-5d9815ff4de8",
            "system": "urn:ietf:rfc:3986"
          }
        ],
        "status": "in-progress",
        "class": {
          "extension": [
            {
              "url": "http://hl7.org/fhir/StructureDefinition/originalText",
              "valueString": "Office outpatient visit"
            }
          ]
        },
        "type": [
          {
            "text": "Office outpatient visit",
            "coding": [
              {
                "code": "99213",
                "system": "http://www.ama-assn.org/go/cpt"
              }
            ]
          }
        ],
        "participant": [
          {
            "individual": {
              "reference": "urn:uuid:4bb8d10b-46be-4087-8d93-faaae5ad59f2"
            }
          }
        ],
        "subject": {
          "reference": "urn:uuid:f0cac5f6-4517-46c0-a4d6-3ff8648cb59f"
        },
        "period": {
          "start": "2012-08-15T18:00:00.000Z"
        },
        "diagnosis": [
          {
            "condition": {
              "reference": "urn:uuid:7df64ac5-3f69-4df1-aeaf-9ed3391d3dc4"
            }
          }
        ]
      }
    },
    {
      "fullUrl": "urn:uuid:4bb8d10b-46be-4087-8d93-faaae5ad59f2",
      "resource": {
        "resourceType": "Practitioner",
        "active": true,
        "identifier": [
          {
            "value": "12345678910",
            "system": "http://hl7.org/fhir/sid/us-npi"
          }
        ],
        "name": [
          {
            "use": "official",
            "family": "Khan",
            "given": [
              "Samir"
            ]
          }
        ]
      }
    },
    {
      "fullUrl": "urn:uuid:7df64ac5-3f69-4df1-aeaf-9ed3391d3dc4",
      "resource": {
        "resourceType": "Condition",
        "category": [
          {
            "coding": [
              {
                "system": "http://terminology.hl7.org/CodeSystem/condition-category",
                "code": "encounter-diagnosis"
              }
            ]
          }
        ],
        "subject": {
          "reference": "urn:uuid:f0cac5f6-4517-46c0-a4d6-3ff8648cb59f"
        },
        "encounter": {
          "reference": "urn:uuid:e3a59b3a-f566-4e67-ac67-005acec86cbc"
        },
        "code": {
          "text": "Costal Chondritis",
          "coding": [
            {
              "code": "64109004",
              "system": "http://snomed.info/sct"
            }
          ]
        }
      }
    },
    {
      "fullUrl": "urn:uuid:c6cf1d0a-e6b3-4f1e-9723-c205adf9ce1c",
      "resource": {
        "resourceType": "Immunization",
        "identifier": [
          {
            "value": "urn:uuid:e6f1ba43-c0ed-4b9b-9f12-f435d8ad8f92",
            "system": "urn:ietf:rfc:3986"
          }
        ],
        "status": "completed",
        "vaccineCode": {
          "text": "Influenza Virus Vaccine",
          "coding": [
            {
              "code": "88",
              "system": "http://hl7.org/fhir/sid/cvx"
            }
          ]
        },
        "patient": {
          "reference": "urn:uuid:f0cac5f6-4517-46c0-a4d6-3ff8648cb59f"
        },
        "encounter": {
          "reference": "urn:uuid:154096a5-fb4e-43d3-8f98-d0610b6bf2e8"
        },
        "occurrenceDateTime": "2010-08-15",
        "lotNumber": "1",
        "_primarySource": {
          "extension": [
            {
              "url": "http://hl7.org/fhir/StructureDefinition/data-absent-reason",
              "valueCode": "unknown"
            }
          ]
        }
      }
    },
    {
      "fullUrl": "urn:uuid:cfaada23-7529-4392-af5c-de2589b64a8b",
      "resource": {
        "resourceType": "MedicationStatement",
        "identifier": [
          {
            "value": "urn:uuid:cdbd33f0-6cde-11db-9fe1-0800200c9a66",
            "system": "urn:ietf:rfc:3986"
          }
        ],
        "status": "active",
        "medicationCodeableConcept": {
          "text": "Albuterol 0.09 MG/ACTUAT inhalant powder",
          "coding": [
            {
              "code": "582498",
              "system": "http://www.nlm.nih.gov/research/umls/rxnorm"
            }
          ]
        },
        "subject": {
          "reference": "urn:uuid:f0cac5f6-4517-46c0-a4d6-3ff8648cb59f"
        },
        "context": {
          "reference": "urn:uuid:154096a5-fb4e-43d3-8f98-d0610b6bf2e8"
        },
        "effectivePeriod": {
          "start": "2012-08-06"
        },
        "dosage": [
          {
            "timing": {
              "repeat": {
                "boundsPeriod": {
                  "start": "2012-08-06"
                }
              }
            },
            "asNeededBoolean": false,
            "doseAndRate": [
              {
                "doseQuantity": {
                  "value": 1
                }
              }
            ]
          }
        ]
      }
    },
    {
      "fullUrl": "urn:uuid:11ca0920-99bd-4775-b184-7205df20aa4a",
      "resource": {
        "resourceType": "ServiceRequest",
        "identifier": [
          {
            "value": "urn:uuid:2a620155-9d11-439e-92b3-5d9815ff4dd4",
            "system": "urn:ietf:rfc:3986"
          }
        ],
        "status": "active",
        "intent": "plan",
        "code": {
          "text": "Weight Loss",
          "coding": [
            {
              "code": "289169006",
              "system": "http://snomed.info/sct"
            }
          ]
        },
        "subject": {
          "reference": "urn:uuid:f0cac5f6-4517-46c0-a4d6-3ff8648cb59f"
        },
        "encounter": {
          "reference": "urn:uuid:154096a5-fb4e-43d3-8f98-d0610b6bf2e8"
        },
        "occurrenceDateTime": "2012-08-15T18:00:00.000Z",
        "category": [
          {
            "coding": [
              {
                "code": "Orders",
                "system": "urn:redox:plan_of_care_type"
              }
            ]
          }
        ]
      }
    },
    {
      "fullUrl": "urn:uuid:2d11e51c-2bc5-48c8-b0b8-0e4f4f20d988",
      "resource": {
        "resourceType": "Condition",
        "identifier": [
          {
            "value": "545069300001",
            "system": "urn:oid:1.3.6.1.4.1.22812.3.2009316.3.4.1.2.1"
          }
        ],
        "clinicalStatus": {
          "text": "active",
          "coding": [
            {
              "code": "active",
              "system": "http://terminology.hl7.org/CodeSystem/condition-clinical",
              "display": "Active"
            }
          ]
        },
        "subject": {
          "reference": "urn:uuid:f0cac5f6-4517-46c0-a4d6-3ff8648cb59f"
        },
        "encounter": {
          "reference": "urn:uuid:154096a5-fb4e-43d3-8f98-d0610b6bf2e8"
        },
        "onsetDateTime": "2012-08-06",
        "code": {
          "text": "Pneumonia",
          "coding": [
            {
              "code": "233604007",
              "system": "http://snomed.info/sct"
            },
            {
              "code": "486",
              "system": "http://hl7.org/fhir/sid/icd-9-cm"
            },
            {
              "code": "J18.9",
              "system": "http://hl7.org/fhir/sid/icd-10-cm"
            },
            {
              "code": "87580",
              "system": "urn:oid:2.16.840.1.113883.3.247.1.1"
            }
          ]
        },
        "category": [
          {
            "text": "Pneumonia",
            "coding": [
              {
                "code": "55607006",
                "system": "http://snomed.info/sct"
              }
            ]
          },
          {
            "coding": [
              {
                "system": "http://terminology.hl7.org/CodeSystem/condition-category",
                "code": "problem-list-item"
              }
            ]
          }
        ]
      }
    },
    {
      "fullUrl": "urn:uuid:9f4a6111-a86a-467a-a2a8-8397c3ca7152",
      "resource": {
        "resourceType": "Condition",
        "identifier": [
          {
            "value": "545077400017",
            "system": "urn:oid:1.3.6.1.4.1.22812.3.2009316.3.4.1.2.1"
          }
        ],
        "clinicalStatus": {
          "text": "active",
          "coding": [
            {
              "code": "active",
              "system": "http://terminology.hl7.org/CodeSystem/condition-clinical",
              "display": "Active"
            }
          ]
        },
        "subject": {
          "reference": "urn:uuid:f0cac5f6-4517-46c0-a4d6-3ff8648cb59f"
        },
        "encounter": {
          "reference": "urn:uuid:154096a5-fb4e-43d3-8f98-d0610b6bf2e8"
        },
        "code": {
          "text": "Asthma",
          "coding": [
            {
              "code": "195967001",
              "system": "http://snomed.info/sct"
            },
            {
              "code": "493.90",
              "system": "http://hl7.org/fhir/sid/icd-9-cm"
            },
            {
              "code": "J45.909",
              "system": "http://hl7.org/fhir/sid/icd-10-cm"
            },
            {
              "code": "94262",
              "system": "urn:oid:2.16.840.1.113883.3.247.1.1"
            }
          ]
        },
        "category": [
          {
            "text": "Asthma",
            "coding": [
              {
                "code": "55607006",
                "system": "http://snomed.info/sct"
              }
            ]
          },
          {
            "coding": [
              {
                "system": "http://terminology.hl7.org/CodeSystem/condition-category",
                "code": "problem-list-item"
              }
            ]
          }
        ]
      }
    },
    {
      "fullUrl": "urn:uuid:912c7a57-db8f-44c4-99a5-49350648270e",
      "resource": {
        "resourceType": "Procedure",
        "identifier": [
          {
            "value": "545069400001",
            "system": "urn:oid:1.3.6.1.4.1.22812.3.2009316.3.4.7"
          }
        ],
        "status": "unknown",
        "_status": {
          "extension": [
            {
              "url": "http://hl7.org/fhir/StructureDefinition/originalText",
              "valueString": "active"
            }
          ]
        },
        "code": {
          "text": "H/O chest x-ray",
          "coding": [
            {
              "code": "416940007",
              "system": "http://snomed.info/sct"
            },
            {
              "code": "V15.89",
              "system": "http://hl7.org/fhir/sid/icd-9-cm"
            },
            {
              "code": "Z92.89",
              "system": "http://hl7.org/fhir/sid/icd-10-cm"
            },
            {
              "code": "2782946",
              "system": "urn:oid:2.16.840.1.113883.3.247.1.1"
            }
          ]
        },
        "category": {
          "text": "Procedures",
          "coding": [
            {
              "code": "Procedures",
              "system": "urn:redox:procedure_act_type"
            }
          ]
        },
        "subject": {
          "reference": "urn:uuid:f0cac5f6-4517-46c0-a4d6-3ff8648cb59f"
        },
        "encounter": {
          "reference": "urn:uuid:154096a5-fb4e-43d3-8f98-d0610b6bf2e8"
        },
        "_performedDateTime": {
          "extension": [
            {
              "url": "http://hl7.org/fhir/StructureDefinition/data-absent-reason",
              "valueCode": "unknown"
            }
          ]
        }
      }
    },
    {
      "fullUrl": "urn:uuid:5829123c-fa86-4c61-b318-e89d28c0547b",
      "resource": {
        "resourceType": "DiagnosticReport",
        "identifier": [
          {
            "value": "1",
            "system": "urn:oid:1.3.6.1.4.1.22812.20.1.1.4.5"
          }
        ],
        "status": "final",
        "code": {
          "text": "Urinanalysis macro (dipstick) panel",
          "coding": [
            {
              "code": "24357-6",
              "system": "http://loinc.org"
            }
          ]
        },
        "subject": {
          "reference": "urn:uuid:f0cac5f6-4517-46c0-a4d6-3ff8648cb59f"
        },
        "encounter": {
          "reference": "urn:uuid:154096a5-fb4e-43d3-8f98-d0610b6bf2e8"
        },
        "effectiveDateTime": "2015-06-22",
        "result": [
          {
            "reference": "urn:uuid:a7e41695-9be5-401d-9363-2eaa742d1142"
          }
        ],
        "category": [
          {
            "coding": [
              {
                "code": "unknown",
                "system": "http://terminology.hl7.org/CodeSystem/data-absent-reason",
                "display": "unknown"
              }
            ]
          }
        ],
        "issued": "2015-06-22T00:00:00.000Z",
        "performer": [
          {
            "reference": "urn:uuid:8ea3232d-b0d1-44cb-a099-0f7fbd6fa6db"
          }
        ]
      }
    },
    {
      "fullUrl": "urn:uuid:a7e41695-9be5-401d-9363-2eaa742d1142",
      "resource": {
        "resourceType": "Observation",
        "identifier": [
          {
            "value": "13",
            "system": "urn:oid:1.3.6.1.4.1.22812.20.1.1.4.5"
          }
        ],
        "status": "final",
        "subject": {
          "reference": "urn:uuid:f0cac5f6-4517-46c0-a4d6-3ff8648cb59f"
        },
        "encounter": {
          "reference": "urn:uuid:154096a5-fb4e-43d3-8f98-d0610b6bf2e8"
        },
        "category": [
          {
            "coding": [
              {
                "code": "unknown",
                "system": "http://terminology.hl7.org/CodeSystem/data-absent-reason",
                "display": "unknown"
              }
            ]
          }
        ],
        "code": {
          "text": "Specific gravity of Urine by Test strip",
          "coding": [
            {
              "code": "5811-5",
              "system": "http://loinc.org"
            }
          ]
        },
        "issued": "2015-06-22T00:00:00.000Z",
        "effectiveDateTime": "2015-06-22",
        "valueQuantity": {
          "value": 1.015,
          "unit": "1"
        },
        "referenceRange": [
          {
            "low": {
              "value": 1.005
            },
            "high": {
              "value": 1.03,
              "_value": {
                "extension": [
                  {
                    "url": "http://hl7.org/fhir/StructureDefinition/quantity-precision",
                    "valueInteger": 3
                  }
                ]
              }
            }
          }
        ]
      }
    },
    {
      "fullUrl": "urn:uuid:8ea3232d-b0d1-44cb-a099-0f7fbd6fa6db",
      "resource": {
        "resourceType": "Organization",
        "name": "Value Labs",
        "address": [
          {
            "line": [
              "2474, Rocky place"
            ],
            "city": "Beaverton",
            "state": "OR",
            "postalCode": "97006"
          }
        ]
      }
    },
    {
      "fullUrl": "urn:uuid:168aa9e7-f3ec-45fd-afc8-5184ced06270",
      "resource": {
        "resourceType": "Observation",
        "identifier": [
          {
            "value": "123456789",
            "system": "urn:oid:2.16.840.1.113883.19"
          }
        ],
        "status": "final",
        "subject": {
          "reference": "urn:uuid:f0cac5f6-4517-46c0-a4d6-3ff8648cb59f"
        },
        "encounter": {
          "reference": "urn:uuid:154096a5-fb4e-43d3-8f98-d0610b6bf2e8"
        },
        "category": [
          {
            "text": "social-history",
            "coding": [
              {
                "code": "social-history",
                "system": "http://terminology.hl7.org/CodeSystem/observation-category",
                "display": "Social History"
              }
            ]
          }
        ],
        "code": {
          "text": "Tobacco smoking status",
          "coding": [
            {
              "code": "72166-2",
              "system": "http://loinc.org"
            }
          ]
        },
        "issued": "2014-06-06T15:32:00.000Z",
        "effectiveDateTime": "2014-06-06T15:32:00.000Z",
        "valueCodeableConcept": {
          "text": "Current every day smoker",
          "coding": [
            {
              "code": "449868002",
              "system": "http://snomed.info/sct"
            }
          ]
        }
      }
    },
    {
      "fullUrl": "urn:uuid:c2c98e8f-2e30-4df8-9a93-16d1ecc28e87",
      "resource": {
        "resourceType": "Observation",
        "identifier": [
          {
            "value": "21688133041015158234",
            "system": "urn:oid:2.16.840.1.113883.3.42.126.100001.19"
          }
        ],
        "status": "final",
        "subject": {
          "reference": "urn:uuid:f0cac5f6-4517-46c0-a4d6-3ff8648cb59f"
        },
        "encounter": {
          "reference": "urn:uuid:154096a5-fb4e-43d3-8f98-d0610b6bf2e8"
        },
        "category": [
          {
            "text": "vital-signs",
            "coding": [
              {
                "code": "vital-signs",
                "system": "http://terminology.hl7.org/CodeSystem/observation-category",
                "display": "Vital Signs"
              }
            ]
          }
        ],
        "code": {
          "text": "Vital Signs Panel",
          "coding": [
            {
              "code": "85353-1",
              "system": "http://loinc.org"
            }
          ]
        },
        "effectiveDateTime": "2014-05-21T01:36:05.000Z",
        "hasMember": [
          {
            "reference": "urn:uuid:0a92a78a-362d-4097-a681-cb2712a98174"
          }
        ]
      }
    },
    {
      "fullUrl": "urn:uuid:0a92a78a-362d-4097-a681-cb2712a98174",
      "resource": {
        "resourceType": "Observation",
        "identifier": [
          {
            "value": "216881330410151584",
            "system": "urn:oid:2.16.840.1.113883.3.42.126.100001.19"
          }
        ],
        "status": "final",
        "subject": {
          "reference": "urn:uuid:f0cac5f6-4517-46c0-a4d6-3ff8648cb59f"
        },
        "encounter": {
          "reference": "urn:uuid:154096a5-fb4e-43d3-8f98-d0610b6bf2e8"
        },
        "category": [
          {
            "text": "vital-signs",
            "coding": [
              {
                "code": "vital-signs",
                "system": "http://terminology.hl7.org/CodeSystem/observation-category",
                "display": "Vital Signs"
              }
            ]
          }
        ],
        "code": {
          "text": "HEART RATE",
          "coding": [
            {
              "code": "8867-4",
              "system": "http://loinc.org"
            }
          ]
        },
        "effectiveDateTime": "2014-05-21T01:36:05.000Z",
        "valueQuantity": {
          "value": 80,
          "unit": "/min"
        }
      }
    },
    {
      "fullUrl": "urn:uuid:8a0f37e3-9c41-4e41-9dfa-c326704239ad",
      "resource": {
        "resourceType": "DocumentReference",
        "subject": {
          "reference": "urn:uuid:f0cac5f6-4517-46c0-a4d6-3ff8648cb59f"
        },
        "type": {
          "text": "Note",
          "coding": [
            {
              "code": "34109-9",
              "system": "http://loinc.org"
            },
            {
              "code": "11488-4",
              "system": "http://loinc.org",
              "extension": [
                {
                  "url": "http://hl7.org/fhir/StructureDefinition/originalText",
                  "valueString": "Consultation note"
                }
              ]
            }
          ]
        },
        "category": [
          {
            "text": "Clinical Note",
            "coding": [
              {
                "code": "clinical-note",
                "system": "http://hl7.org/fhir/us/core/CodeSystem/us-core-documentreference-category",
                "display": "Clinical Note"
              }
            ]
          }
        ],
        "content": [
          {
            "attachment": {
              "data": "",
              "contentType": "application/xhtml+xml"
            }
          }
        ],
        "context": {
          "encounter": [
            {
              "reference": "urn:uuid:154096a5-fb4e-43d3-8f98-d0610b6bf2e8"
            }
          ]
        },
        "date": "2016-09-08T00:00:00.000Z",
        "status": "current"
      }
    }
  ],
  "identifier": {
    "system": "urn:redox:transmission-id",
    "value": "4699750632"
  },
  "timestamp": "2022-09-16T17:24:24.999Z",
  "id": "bundle-document-4699750632",
  "type": "document",
  "resourceType": "Bundle"
}